File: Ramma/Dados/RAMAN_Dados/MoS2.txt
44.56800	1307.30
46.16700	1309.40
47.76560	1306.00
49.36370	1303.40
50.96130	1305.10
52.55850	1310.80
54.15520	1308.60
55.75140	1307.50
57.34720	1310.30
58.94250	1311.90
60.53740	1322.00
62.13180	1323.50
63.72580	1321.90
65.31930	1331.60
66.91230	1341.30
68.50490	1352.60
70.09700	1351.90
71.68860	1372.60
73.27980	1371.60
74.87060	1382.70
76.46090	1397.40
78.05070	1382.40
79.64000	1375.50
81.22900	1375.10
82.81740	1385.30
84.40540	1394.80
85.99300	1373.80
87.58000	1370.90
89.16670	1371.20
90.75290	1382.80
92.33860	1395.00
93.92380	1377.50
95.50870	1384.60
97.09300	1375.40
98.67690	1384.40
100.26	1387.00
101.843	1383.80
103.426	1383.30
105.008	1385.20
106.59	1405.20
108.171	1401.90
109.752	1399.60
111.332	1392.40
112.912	1391.00
114.491	1386.60
116.07	1405.90
117.648	1406.00
119.227	1406.80
120.804	1408.50
122.381	1423.50
123.958	1439.10
125.534	1439.90
127.11	1431.00
128.685	1444.00
130.26	1447.50
131.835	1454.40
133.409	1456.60
134.982	1461.70
136.555	1468.30
138.128	1457.60
139.7	1478.30
141.272	1488.20
142.843	1476.20
144.414	1487.30
145.984	1481.10
147.554	1514.60
149.124	1505.80
150.693	1500.00
152.261	1501.50
153.83	1492.50
155.397	1481.70
156.965	1471.60
158.532	1475.50
160.098	1469.90
161.664	1463.20
163.229	1458.70
164.794	1461.40
166.359	1462.90
167.923	1458.50
169.487	1457.10
171.05	1454.50
172.613	1473.80
174.176	1479.90
175.738	1487.30
177.299	1501.70
178.86	1494.30
180.421	1490.10
181.981	1481.80
183.541	1493.10
185.1	1489.40
186.659	1500.80
188.218	1500.70
189.776	1503.50
191.333	1502.10
192.89	1489.30
194.447	1479.40
196.003	1470.60
197.559	1475.10
199.114	1464.60
200.669	1458.40
202.224	1479.50
203.778	1464.00
205.332	1468.20
206.885	1471.70
208.438	1480.40
209.99	1476.70
211.542	1465.20
213.093	1465.00
214.644	1461.30
216.195	1458.30
217.745	1449.70
219.295	1467.50
220.844	1468.50
222.393	1441.90
223.941	1456.50
225.489	1456.60
227.037	1447.90
228.584	1457.30
230.131	1449.70
231.677	1456.20
233.223	1441.60
234.768	1445.30
236.313	1444.70
237.857	1441.40
239.402	1438.30
240.945	1434.00
242.488	1431.60
244.031	1435.80
245.574	1431.60
247.116	1432.10
248.657	1437.20
250.198	1439.10
251.739	1431.20
253.279	1430.90
254.819	1434.90
256.358	1429.10
257.897	1431.50
259.436	1428.20
260.974	1419.10
262.511	1423.10
264.048	1428.50
265.585	1428.90
267.122	1418.30
268.658	1422.80
270.193	1417.70
271.728	1418.10
273.263	1425.10
274.797	1425.90
276.331	1423.80
277.864	1425.10
279.397	1421.30
280.93	1424.70
282.462	1417.10
283.994	1430.20
285.525	1428.60
287.056	1426.50
288.586	1427.20
290.116	1424.30
291.646	1424.10
293.175	1418.30
294.703	1419.70
296.232	1412.60
297.76	1419.60
299.287	1418.20
300.814	1420.70
302.341	1429.50
303.867	1426.20
305.393	1429.80
306.918	1429.10
308.443	1430.50
309.967	1427.80
311.491	1436.10
313.015	1431.90
314.538	1435.30
316.061	1436.30
317.584	1442.30
319.106	1448.50
320.627	1441.70
322.148	1453.30
323.669	1443.40
325.189	1447.10
326.709	1441.90
328.229	1450.40
329.748	1454.40
331.266	1451.20
332.785	1456.40
334.302	1464.90
335.82	1458.90
337.337	1469.90
338.853	1464.90
340.369	1466.10
341.885	1474.30
343.401	1477.30
344.915	1471.60
346.43	1473.70
347.944	1477.40
349.458	1484.10
350.971	1485.20
352.484	1489.40
353.996	1502.40
355.508	1503.50
357.02	1518.80
358.531	1501.50
360.042	1535.30
361.552	1522.60
363.062	1536.20
364.571	1554.50
366.08	1559.30
367.589	1590.30
369.097	1622.30
370.605	1658.40
372.113	1710.30
373.62	1829.10
375.127	2004.10
376.633	2377.70
378.139	3247.10
379.644	4638.90
381.149	5499.20
382.654	3798.70
384.158	2142.30
385.662	1742.10
387.165	1665.60
388.668	1642.40
390.17	1644.40
391.673	1651.90
393.174	1672.30
394.676	1698.20
396.177	1765.70
397.677	1857.90
399.177	1980.60
400.677	2251.10
402.176	2802.30
403.675	4031.20
405.174	6531.60
406.672	9349.30
408.169	8598.10
409.667	4495.50
411.163	2618.20
412.66	2062.40
414.156	1892.00
415.652	1789.40
417.147	1738.30
418.642	1725.60
420.136	1702.00
421.63	1685.40
423.124	1679.60
424.617	1668.10
426.11	1656.10
427.602	1656.50
429.094	1676.50
430.586	1666.70
432.077	1677.30
433.568	1685.90
435.058	1687.70
436.548	1707.40
438.038	1722.50
439.527	1730.60
441.016	1739.00
442.504	1775.00
443.992	1785.30
445.48	1826.70
446.967	1883.70
448.454	1897.50
449.94	1920.40
451.426	1901.40
452.912	1854.30
454.397	1823.30
455.882	1811.50
457.366	1788.70
458.85	1801.70
460.334	1782.20
461.817	1794.90
463.3	1770.60
464.783	1738.20
466.265	1671.90
467.746	1604.60
469.227	1538.80
470.708	1489.30
472.189	1467.30
473.669	1451.30
475.148	1437.10
476.628	1436.90
478.107	1430.10
479.585	1433.80
481.063	1428.20
482.541	1429.20
484.018	1431.80
485.495	1437.50
486.972	1428.20
488.448	1435.40
489.923	1430.20
491.399	1426.20
492.874	1439.60
494.348	1439.00
495.822	1438.80
497.296	1436.10
498.769	1441.80
500.242	1442.10
501.715	1434.60
503.187	1434.50
504.659	1440.50
506.13	1440.50
507.601	1437.90
509.072	1442.50
510.542	1443.60
512.012	1443.10
513.482	1444.70
514.951	1447.90
516.419	1453.40
517.888	1451.90
519.355	1453.90
520.823	1464.30
522.29	1453.80
523.757	1458.20
525.223	1469.80
526.689	1466.10
528.155	1466.10
529.62	1465.60
531.085	1468.50
532.549	1465.00
534.013	1452.60
535.477	1460.80
536.94	1463.60
538.403	1458.90
539.865	1469.90
541.327	1467.60
542.789	1477.30
544.25	1481.00
545.711	1483.40
547.172	1485.90
548.632	1494.20
550.092	1498.00
551.551	1513.60
553.01	1500.70
554.469	1517.50
555.927	1535.00
557.385	1543.80
558.842	1538.70
560.3	1535.50
561.756	1549.40
563.213	1574.20
564.669	1579.50
566.124	1596.80
567.579	1612.20
569.034	1594.30
570.489	1589.30
571.943	1558.30
573.396	1557.00
574.85	1546.70
576.302	1560.00
577.755	1557.40
579.207	1565.00
580.659	1571.70
582.11	1580.40
583.561	1593.10
585.012	1594.50
586.462	1598.20
587.912	1602.30
589.361	1601.80
590.811	1613.70
592.259	1622.80
593.708	1638.20
595.156	1646.50
596.603	1625.20
598.05	1602.40
599.497	1543.00
600.944	1515.80
602.39	1496.70
603.835	1496.80
605.281	1495.10
606.726	1482.70
608.17	1491.70
609.615	1483.10
611.058	1479.50
612.502	1491.20
613.945	1493.30
615.388	1494.60
616.83	1479.90
618.272	1484.30
619.713	1482.10
621.155	1482.00
622.595	1475.10
624.036	1482.10
625.476	1480.20
626.916	1486.50
628.355	1477.60
629.794	1481.50
631.233	1477.60
632.671	1470.80
634.109	1482.60
635.546	1470.10
636.983	1466.90
638.42	1461.70
639.856	1452.00
641.292	1449.90
642.728	1430.80
644.163	1418.30
645.598	1400.90
647.033	1412.60
648.467	1402.90
649.9	1396.40
651.334	1396.10
652.767	1389.20
654.2	1393.60
655.632	1399.40
657.064	1389.70
658.495	1385.50
659.926	1394.20
661.357	1392.50
662.788	1392.10
664.218	1406.10
665.648	1403.80
667.077	1398.50
668.506	1416.50
669.934	1397.90
671.363	1406.10
672.791	1401.10
674.218	1401.50
675.645	1393.80
677.072	1400.00
678.498	1393.40
679.924	1391.60
681.35	1388.90
682.775	1396.80
684.2	1396.60
685.625	1389.50
687.049	1393.50
688.473	1398.20
689.896	1398.20
691.32	1394.10
692.742	1406.40
694.165	1420.40
695.587	1416.50
697.008	1418.50
698.43	1432.80
699.851	1430.40
701.271	1421.70
702.691	1427.80
704.111	1431.70
705.531	1425.60
706.95	1423.40
708.369	1426.50
709.787	1418.40
711.205	1420.80
712.623	1413.10
714.04	1423.10
715.457	1423.70
716.874	1429.30
718.29	1442.30
719.706	1439.50
721.121	1446.00
722.536	1444.00
723.951	1442.50
725.366	1445.20
726.78	1449.90
728.193	1450.00
729.607	1450.10
731.02	1458.40
732.432	1461.90
733.845	1474.70
735.257	1458.40
736.668	1471.10
738.079	1481.90
739.49	1487.90
740.901	1493.70
742.311	1500.10
743.721	1503.90
745.13	1522.90
746.539	1511.50
747.948	1510.50
749.356	1509.90
750.764	1517.30
752.172	1507.20
753.579	1507.70
754.986	1489.60
756.393	1484.30
757.799	1484.70
759.205	1476.20
760.61	1476.40
762.015	1450.20
763.42	1446.40
764.825	1436.70
766.229	1427.90
767.633	1429.30
769.036	1439.30
770.439	1444.20
771.842	1442.90
773.244	1463.90
774.646	1459.40
776.048	1473.40
777.449	1454.90
778.85	1463.90
780.25	1454.10
781.651	1441.60
783.05	1441.90
784.45	1438.70
785.849	1428.00
787.248	1420.50
788.646	1419.20
790.044	1411.70
791.442	1399.30
792.84	1399.40
794.237	1402.20
795.633	1395.30
797.03	1393.20
798.426	1400.00
799.821	1401.30
801.217	1402.80
802.612	1404.00
804.006	1411.40
805.401	1407.80
806.794	1417.40
808.188	1415.00
809.581	1430.10
810.974	1423.90
812.367	1431.30
813.759	1431.70
815.151	1426.30
816.542	1424.50
817.933	1426.30
819.324	1413.70
820.714	1427.10
822.105	1409.80
823.494	1410.40
824.884	1402.70
826.273	1405.30
827.661	1399.00
829.05	1392.80
830.438	1386.70
831.825	1382.20
833.213	1383.20
834.6	1377.30
835.986	1374.70
837.373	1370.30
838.759	1373.90
840.144	1369.90
841.53	1375.50
842.914	1377.10
844.299	1371.80
845.683	1380.30
847.067	1381.50
848.451	1373.60
849.834	1377.40
851.217	1369.00
852.599	1373.60
853.981	1372.50
855.363	1379.80
856.745	1368.90
858.126	1371.10
859.507	1370.20
860.887	1371.40
862.267	1367.70
863.647	1364.50
865.027	1370.90
866.406	1368.90
867.784	1364.10
869.163	1368.00
870.541	1374.50
871.919	1363.40
873.296	1364.00
874.673	1361.70
876.05	1360.50
877.426	1359.20
878.802	1361.50
880.178	1367.20
881.553	1360.10
882.928	1360.40
884.303	1362.10
885.677	1361.50
887.052	1363.20
888.425	1357.60
889.799	1362.30
891.172	1364.00
892.544	1366.20
893.917	1359.50
895.289	1360.80
896.66	1369.30
898.032	1363.60
899.403	1360.50
900.773	1368.50
902.143	1359.00
903.513	1361.20
904.883	1358.40
906.252	1362.80
907.621	1429.60
908.99	1360.70
910.358	1355.90
911.726	1360.40
913.094	1362.50
914.461	1361.00
915.828	1361.40
917.195	1360.30
918.561	1361.40
919.927	1365.80
921.293	1362.90
922.658	1361.40
924.023	1358.20
925.388	1357.30
926.752	1364.00
928.116	1360.40
929.479	1363.20
930.843	1357.70
932.206	1362.80
933.568	1368.90
934.931	1357.50
936.293	1362.40
937.654	1358.40
939.016	1357.80
940.377	1361.70
941.737	1354.90
943.098	1363.80
944.458	1359.70
945.817	1353.90
947.177	1364.10
948.536	1355.90
949.894	1357.40
951.253	1358.20
952.611	1363.60
953.968	1356.90
955.326	1355.70
956.683	1359.20
958.039	1360.00
959.396	1359.50
960.752	1359.00
962.107	1358.00
963.463	1362.80
964.818	1358.40
966.173	1357.10
967.527	1365.60
968.881	1356.30
970.235	1358.20
971.588	1351.70
972.941	1354.60
974.294	1355.90
975.647	1357.90
976.999	1356.00
978.35	1360.10
979.702	1358.60
981.053	1351.50
982.404	1351.70
983.754	1352.50
985.104	1357.40
986.454	1357.50
987.804	1353.60
989.153	1355.90
990.502	1357.60
991.85	1351.00
993.199	1355.90
994.546	1350.80
995.894	1348.90
997.241	1354.40
998.588	1360.20
999.935	1361.60
1001.28	1353.90
1002.63	1352.80
1003.97	1353.60
1005.32	1350.00
1006.66	1353.60
1008.01	1349.60
1009.35	1348.20
1010.7	1351.60
1012.04	1349.20
1013.38	1349.60
1014.73	1349.50
1016.07	1351.60
1017.41	1348.60
1018.75	1346.20
1020.09	1354.00
1021.44	1345.20
1022.78	1348.60
1024.12	1345.80
1025.46	1346.40
1026.8	1352.40
1028.14	1344.60
1029.48	1345.90
1030.82	1346.20
1032.16	1343.20
1033.49	1342.90
1034.83	1345.30
1036.17	1344.50
1037.51	1345.30
1038.85	1347.20
1040.18	1345.10
1041.52	1346.30
1042.86	1346.30
1044.19	1340.00
1045.53	1348.10
1046.86	1346.50
1048.2	1342.40
1049.53	1340.40
1050.87	1339.70
1052.2	1340.30
1053.54	1341.20
1054.87	1343.20
1056.2	1345.50
1057.53	1337.70
1058.87	1342.20
1060.2	1336.60
1061.53	1337.90
1062.86	1337.30
1064.19	1337.90
1065.52	1340.40
1066.86	1344.60
1068.19	1339.30
1069.52	1338.30
1070.85	1337.70
1072.17	1339.40
1073.5	1342.80
1074.83	1337.20
1076.16	1346.90
1077.49	1341.30
1078.82	1342.60
1080.14	1335.60
1081.47	1342.10
1082.8	1339.40
1084.13	1334.70
1085.45	1338.30
1086.78	1343.70
1088.1	1341.40
1089.43	1342.40
1090.75	1336.70
1092.08	1340.00
1093.4	1348.40
1094.73	1342.00
1096.05	1338.10
1097.37	1340.20
1098.7	1335.40
1100.02	1338.80
1101.34	1336.90
1102.66	1337.30
1103.99	1341.40
1105.31	1333.90
1106.63	1338.00
1107.95	1341.40
1109.27	1338.20
1110.59	1339.60
1111.91	1338.40
1113.23	1338.40
1114.55	1339.30
1115.87	1340.70
1117.19	1334.40
1118.51	1337.80
1119.82	1359.50
1121.14	1336.70
1122.46	1338.80
1123.78	1345.50
1125.09	1334.30
1126.41	1383.40
1127.73	1340.10
1129.04	1338.00
1130.36	1330.70
1131.67	1341.20
1132.99	1343.50
1134.3	1331.10
1135.62	1339.40
1136.93	1332.00
1138.25	1337.80
1139.56	1331.30
1140.87	1340.60
1142.19	1336.80
1143.5	1336.70
1144.81	1335.30
1146.12	1338.20
1147.43	1335.20
1148.75	1332.50
1150.06	1351.80
1151.37	1337.70
1152.68	1346.60
1153.99	1340.40
1155.3	1337.30
1156.61	1332.50
1157.92	1333.70
1159.23	1339.60
1160.53	1330.90
1161.84	1331.00
1163.15	1335.00
1164.46	1335.10
1165.77	1333.60
1167.07	1333.90
1168.38	1330.40
1169.69	1334.90
1170.99	1337.90
1172.3	1339.00
1173.6	1334.10
1174.91	1342.60
1176.21	1330.70
1177.52	1335.10
1178.82	1332.50
1180.13	1336.50
1181.43	1336.00
1182.73	1337.80
1184.04	1337.20
1185.34	1336.00
1186.64	1329.80
1187.95	1339.40
1189.25	1331.00
1190.55	1336.80
1191.85	1334.10
1193.15	1333.50
1194.45	1345.40
1195.1	1332.40